TITLE	ACcitrico
DATA TYPE	INFRARED SPECTRUM
ORIGIN	JASCO
OWNER	
DATE	24/11/05
TIME	11:57:49
SPECTROMETER/DATA SYSTEM	
LOCALE	3082
RESOLUTION	
DELTAX	0,964233
XUNITS	1/CM
YUNITS	TRANSMITTANCE
FIRSTX	  399,1927
LASTX	 4000,6047
NPOINTS	    3736
FIRSTY	    83,31934
MAXY	   103,34169
MINY	    69,06387
XYDATA
399,1927	83,3193
400,1569	84,8944
401,1211	86,7886
402,0854	88,5663
403,0496	90,0238
404,0138	91,1174
404,9781	91,8691
405,9423	92,3002
406,9065	92,3957
407,8708	92,1087
408,8350	91,4109
409,7992	90,3698
410,7635	89,1997
411,7277	88,2134
412,6919	87,6645
413,6562	87,6071
414,6204	87,8918
415,5846	88,257
416,5489	88,4113
417,5131	88,1086
418,4773	87,3229
419,4416	86,4178
420,4058	85,8374
421,3700	85,6314
422,3343	85,6093
423,2985	85,6723
424,2627	85,8724
425,2270	86,3086
426,1912	86,9978
427,1554	87,8147
428,1197	88,5417
429,0839	88,9763
430,0481	89,0149
431,0124	88,6788
431,9766	88,0915
432,9408	87,4308
433,9051	86,8817
434,8693	86,5978
435,8335	86,657
436,7978	87,0254
437,7620	87,5677
438,7262	88,1152
439,6905	88,5434
440,6547	88,8149
441,6189	88,9728
442,5832	89,0918
443,5474	89,2073
444,5116	89,279
445,4759	89,2293
446,4401	89,0179
447,4043	88,6728
448,3686	88,2635
449,3328	87,8535
450,2970	87,4709
451,2613	87,1106
452,2255	86,7598
453,1897	86,4212
454,1540	86,1131
455,1182	85,8522
456,0824	85,6321
457,0467	85,417
458,0109	85,1598
458,9751	84,8407
459,9394	84,4839
460,9036	84,1318
461,8678	83,8122
462,8321	83,5271
463,7963	83,2563
464,7605	82,9645
465,7248	82,6136
466,6890	82,1782
467,6532	81,6557
468,6175	81,0633
469,5817	80,4313
470,5459	79,8007
471,5102	79,2241
472,4744	78,753
473,4386	78,4068
474,4029	78,1504
475,3671	77,9096
476,3313	77,6105
477,2956	77,2149
478,2598	76,7363
479,2240	76,2348
480,1883	75,7886
481,1525	75,4579
482,1167	75,2598
483,0810	75,1669
484,0452	75,127
485,0094	75,0904
485,9737	75,0304
486,9379	74,9468
487,9021	74,8569
488,8664	74,7843
489,8306	74,7466
490,7948	74,7411
491,7591	74,7369
492,7233	74,6859
493,6875	74,5531
494,6518	74,3443
495,6160	74,107
496,5802	73,9132
497,5445	73,8458
498,5087	73,9957
499,4729	74,4554
500,4372	75,2847
501,4014	76,4468
502,3656	77,751
503,3299	78,8709
504,2941	79,4783
505,2583	79,4474
506,2226	78,9811
507,1868	78,5216
508,1510	78,4873
509,1153	79,05
510,0795	80,0993
511,0437	81,36
512,0080	82,5472
512,9722	83,4788
513,9365	84,1109
514,9007	84,5043
515,8649	84,7617
516,8292	84,9756
517,7934	85,2048
518,7576	85,4718
519,7219	85,7672
520,6861	86,0596
521,6503	86,3105
522,6146	86,4933
523,5788	86,6093
524,5430	86,6948
525,5073	86,8043
526,4715	86,9703
527,4357	87,1698
528,4000	87,3341
529,3642	87,3913
530,3284	87,2996
531,2927	87,0538
532,2569	86,6724
533,2211	86,1788
534,1854	85,5896
535,1496	84,9114
536,1138	84,1475
537,0781	83,3057
538,0423	82,4033
539,0065	81,4673
539,9708	80,5326
540,9350	79,6391
541,8992	78,8281
542,8635	78,1361
543,8277	77,5893
544,7919	77,2014
545,7562	76,98
546,7204	76,9382
547,6846	77,104
548,6489	77,5151
549,6131	78,1987
550,5773	79,1462
551,5416	80,3003
552,5058	81,5642
553,4700	82,8293
554,4343	84,0066
555,3985	85,0486
556,3627	85,9504
557,3270	86,7336
558,2912	87,4243
559,2554	88,039
560,2197	88,5829
561,1839	89,0562
562,1481	89,4623
563,1124	89,811
564,0766	90,1179
565,0408	90,4009
566,0051	90,674
566,9693	90,9404
567,9335	91,1851
568,8978	91,3769
569,8620	91,482
570,8262	91,485
571,7905	91,4002
572,7547	91,2668
573,7189	91,1302
574,6832	91,0194
575,6474	90,9332
576,6116	90,8437
577,5759	90,7176
578,5401	90,5372
579,5043	90,3062
580,4686	90,0354
581,4328	89,7256
582,3970	89,3613
583,3613	88,9218
584,3255	88,3994
585,2897	87,8068
586,2540	87,1649
587,2182	86,4787
588,1824	85,72
589,1467	84,8294
590,1109	83,742
591,0751	82,4273
592,0394	80,9232
593,0036	79,3386
593,9678	77,8204
594,9321	76,514
595,8963	75,5486
596,8605	75,042
597,8248	75,0971
598,7890	75,7731
599,7532	77,0457
600,7175	78,7932
601,6817	80,8294
602,6459	82,9607
603,6102	85,0286
604,5744	86,9211
605,5386	88,5662
606,5029	89,9261
607,4671	90,9967
608,4313	91,8053
609,3956	92,4013
610,3598	92,8395
611,3240	93,163
612,2883	93,3947
613,2525	93,5389
614,2167	93,5926
615,1810	93,558
616,1452	93,4504
617,1094	93,2966
618,0737	93,1234
619,0379	92,9446
620,0021	92,7565
620,9664	92,5449
621,9306	92,2971
622,8948	92,0102
623,8591	91,6905
624,8233	91,3455
625,7875	90,9752
626,7518	90,5687
627,7160	90,1107
628,6802	89,5897
629,6445	89,0025
630,6087	88,3535
631,5729	87,65
632,5372	86,9005
633,5014	86,1158
634,4656	85,3128
635,4299	84,5177
636,3941	83,7695
637,3583	83,123
638,3226	82,6487
639,2868	82,4263
640,2510	82,5253
641,2153	82,9792
642,1795	83,765
643,1437	84,801
644,1080	85,9672
645,0722	87,1419
646,0364	88,2334
647,0007	89,1926
647,9649	90,0024
648,9291	90,6587
649,8934	91,1586
650,8576	91,5043
651,8218	91,7112
652,7861	91,8108
653,7503	91,8408
654,7145	91,8335
655,6788	91,8075
656,6430	91,7665
657,6072	91,7037
658,5715	91,6075
659,5357	91,4697
660,4999	91,2954
661,4642	91,1075
662,4284	90,9373
663,3926	90,806
664,3569	90,7111
665,3211	90,619
666,2853	90,4597
667,2496	90,142
668,2138	89,643
669,1780	89,0986
670,1423	88,6719
671,1065	88,3797
672,0707	88,1423
673,0350	87,8804
673,9992	87,5491
674,9634	87,1421
675,9277	86,6857
676,8919	86,2169
677,8561	85,7575
678,8204	85,3071
679,7846	84,8608
680,7488	84,429
681,7131	84,0407
682,6773	83,7298
683,6415	83,5183
684,6058	83,4092
685,5700	83,3914
686,5342	83,4474
687,4985	83,5587
688,4627	83,7072
689,4269	83,8762
690,3912	84,0487
691,3554	84,2067
692,3196	84,3335
693,2839	84,4206
694,2481	84,479
695,2123	84,549
696,1766	84,7006
697,1408	85,018
698,1050	85,5701
699,0693	86,3804
700,0335	87,4101
700,9977	88,5639
701,9620	89,7153
702,9262	90,7416
703,8904	91,5557
704,8547	92,1231
705,8189	92,4583
706,7831	92,6048
707,7474	92,6109
708,7116	92,5153
709,6758	92,3443
710,6401	92,117
711,6043	91,8507
712,5685	91,5606
713,5328	91,2579
714,4970	90,9479
715,4612	90,6331
716,4255	90,3177
717,3897	90,0093
718,3539	89,716
719,3182	89,4399
720,2824	89,1728
721,2466	88,9003
722,2109	88,6104
723,1751	88,3026
724,1393	87,9877
725,1036	87,6827
726,0678	87,402
727,0320	87,1513
727,9963	86,9247
728,9605	86,707
729,9247	86,4775
730,8890	86,2179
731,8532	85,9194
732,8174	85,5872
733,7817	85,2398
734,7459	84,9
735,7101	84,5821
736,6744	84,283
737,6386	83,9834
738,6028	83,6601
739,5671	83,3022
740,5313	82,9197
741,4955	82,5388
742,4598	82,1857
743,4240	81,8705
744,3882	81,5816
745,3525	81,2943
746,3167	80,986
747,2809	80,6484
748,2452	80,2885
749,2094	79,919
750,1736	79,5472
751,1379	79,1697
752,1021	78,7773
753,0663	78,3656
754,0306	77,9439
754,9948	77,5347
755,9590	77,1644
756,9233	76,85
757,8875	76,5895
758,8517	76,3631
759,8160	76,1433
760,7802	75,9087
761,7444	75,653
762,7087	75,3866
763,6729	75,1294
764,6371	74,9022
765,6014	74,7191
766,5656	74,586
767,5298	74,5014
768,4941	74,4597
769,4583	74,4543
770,4225	74,4799
771,3868	74,5342
772,3510	74,6159
773,3152	74,7194
774,2795	74,8288
775,2437	74,9154
776,2079	74,9463
777,1722	74,904
778,1364	74,8093
779,1006	74,7352
780,0649	74,7992
781,0291	75,1323
781,9933	75,8335
782,9576	76,9293
783,9218	78,3549
784,8860	79,9681
785,8503	81,592
786,8145	83,067
787,7787	84,2911
788,7430	85,2338
789,7072	85,923
790,6714	86,4189
791,6357	86,7874
792,5999	87,083
793,5641	87,3436
794,5284	87,5918
795,4926	87,8393
796,4568	88,0898
797,4211	88,3411
798,3853	88,5881
799,3495	88,8256
800,3138	89,0524
801,2780	89,272
802,2422	89,4924
803,2065	89,7215
804,1707	89,9629
805,1349	90,2115
806,0992	90,4525
807,0634	90,6625
808,0276	90,8129
808,9919	90,8714
809,9561	90,8019
810,9203	90,5654
811,8846	90,1254
812,8488	89,465
813,8130	88,6104
814,7773	87,6498
815,7415	86,7332
816,7057	86,0428
817,6700	85,7403
818,6342	85,913
819,5984	86,5422
820,5627	87,5103
821,5269	88,6421
822,4911	89,7614
823,4554	90,7396
824,4196	91,5188
825,3839	92,1062
826,3481	92,5481
827,3123	92,8995
828,2766	93,2007
829,2408	93,4692
830,2050	93,7032
831,1693	93,893
832,1335	94,032
833,0977	94,1224
834,0620	94,1747
835,0262	94,2026
835,9904	94,2179
836,9547	94,2283
837,9189	94,2376
838,8831	94,2476
839,8474	94,2592
840,8116	94,2718
841,7758	94,2834
842,7401	94,2912
843,7043	94,2925
844,6685	94,2855
845,6328	94,2679
846,5970	94,2363
847,5612	94,1854
848,5255	94,1113
849,4897	94,0158
850,4539	93,909
851,4182	93,8073
852,3824	93,7261
853,3466	93,6719
854,3109	93,6377
855,2751	93,6057
856,2393	93,5558
857,2036	93,4753
858,1678	93,3642
859,1320	93,2333
860,0963	93,0972
861,0605	92,965
862,0247	92,835
862,9890	92,6945
863,9532	92,5247
864,9174	92,3087
865,8817	92,0377
866,8459	91,7133
867,8101	91,345
868,7744	90,9438
869,7386	90,5171
870,7028	90,0682
871,6671	89,5997
872,6313	89,1194
873,5955	88,6418
874,5598	88,183
875,5240	87,7529
876,4882	87,3503
877,4525	86,9692
878,4167	86,6143
879,3809	86,3173
880,3452	86,1408
881,3094	86,164
882,2736	86,4527
883,2379	87,0297
884,2021	87,8582
885,1663	88,8494
886,1306	89,8875
887,0948	90,863
888,0590	91,698
889,0233	92,3558
889,9875	92,8352
890,9517	93,1542
891,9160	93,3356
892,8802	93,3973
893,8444	93,3507
894,8087	93,2
895,7729	92,9401
896,7371	92,553
897,7014	92,0096
898,6656	91,2863
899,6298	90,3942
900,5941	89,4093
901,5583	88,4819
902,5225	87,8072
903,4868	87,5625
904,4510	87,8354
905,4152	88,5804
906,3795	89,6303
907,3437	90,7564
908,3079	91,7503
909,2722	92,4858
910,2364	92,9369
911,2006	93,1512
912,1649	93,2042
913,1291	93,1589
914,0933	93,0497
915,0576	92,887
916,0218	92,672
916,9860	92,4084
917,9503	92,1058
918,9145	91,7759
919,8787	91,4274
920,8430	91,0632
921,8072	90,6821
922,7714	90,2826
923,7357	89,8655
924,6999	89,4323
925,6641	88,9795
926,6284	88,4947
927,5926	87,9594
928,5568	87,3622
929,5211	86,7158
930,4853	86,0683
931,4495	85,4958
932,4138	85,0775
933,3780	84,8631
934,3422	84,8499
935,3065	84,983
936,2707	85,1783
937,2349	85,3554
938,1992	85,4651
939,1634	85,4986
940,1276	85,4797
941,0919	85,4478
942,0561	85,4425
943,0203	85,4952
943,9846	85,6268
944,9488	85,8482
945,9130	86,1606
946,8773	86,5556
947,8415	87,0153
948,8057	87,5158
949,7700	88,0311
950,7342	88,5379
951,6984	89,0186
952,6627	89,4617
953,6269	89,8605
954,5911	90,2125
955,5554	90,5176
956,5196	90,7787
957,4838	91,0005
958,4481	91,1883
959,4123	91,3457
960,3765	91,4729
961,3408	91,5676
962,3050	91,6271
963,2692	91,6513
964,2335	91,6454
965,1977	91,6193
966,1619	91,5856
967,1262	91,5562
968,0904	91,541
969,0546	91,547
970,0189	91,5791
970,9831	91,6402
971,9473	91,7316
972,9116	91,8526
973,8758	92,0014
974,8400	92,1758
975,8043	92,3735
976,7685	92,5916
977,7327	92,8255
978,6970	93,0687
979,6612	93,3144
980,6254	93,5572
981,5897	93,7945
982,5539	94,0249
983,5181	94,2457
984,4824	94,4507
985,4466	94,6327
986,4108	94,7877
987,3751	94,9185
988,3393	95,0348
989,3035	95,1479
990,2678	95,2643
991,2320	95,3824
992,1962	95,495
993,1605	95,5941
994,1247	95,6762
995,0889	95,7421
996,0532	95,7947
997,0174	95,8355
997,9816	95,8639
998,9459	95,8797
999,9101	95,8851
1000,8743	95,8849
1001,8386	95,8843
1002,8028	95,8861
1003,7670	95,8899
1004,7313	95,8927
1005,6955	95,8899
1006,6597	95,8771
1007,6240	95,8503
1008,5882	95,8086
1009,5524	95,755
1010,5167	95,6973
1011,4809	95,6454
1012,4451	95,6061
1013,4094	95,5798
1014,3736	95,5591
1015,3378	95,5328
1016,3021	95,4913
1017,2663	95,43
1018,2305	95,3493
1019,1948	95,2529
1020,1590	95,1452
1021,1232	95,0308
1022,0875	94,914
1023,0517	94,7989
1024,0160	94,6879
1024,9802	94,5807
1025,9445	94,4747
1026,9087	94,3662
1027,8729	94,2521
1028,8372	94,1301
1029,8014	93,998
1030,7656	93,8528
1031,7299	93,6911
1032,6941	93,5106
1033,6583	93,3112
1034,6226	93,0952
1035,5868	92,8658
1036,5510	92,6239
1037,5153	92,3669
1038,4795	92,0888
1039,4437	91,782
1040,4080	91,4392
1041,3722	91,0558
1042,3364	90,6309
1043,3007	90,1678
1044,2649	89,6754
1045,2291	89,1686
1046,1934	88,668
1047,1576	88,1982
1048,1218	87,7841
1049,0861	87,4467
1050,0503	87,1994
1051,0145	87,0479
1051,9788	86,992
1052,9430	87,0293
1053,9072	87,1576
1054,8715	87,374
1055,8357	87,6728
1056,7999	88,0413
1057,7642	88,459
1058,7284	88,8993
1059,6926	89,3351
1060,6569	89,7436
1061,6211	90,1099
1062,5853	90,427
1063,5496	90,6928
1064,5138	90,9069
1065,4780	91,0674
1066,4423	91,1698
1067,4065	91,2073
1068,3707	91,1734
1069,3350	91,063
1070,2992	90,8738
1071,2634	90,6047
1072,2277	90,2526
1073,1919	89,8096
1074,1561	89,2605
1075,1204	88,5885
1076,0846	87,7879
1077,0488	86,8836
1078,0131	85,9472
1078,9773	85,099
1079,9415	84,4861
1080,9058	84,2403
1081,8700	84,4303
1082,8342	85,0321
1083,7985	85,9311
1084,7627	86,9595
1085,7269	87,9491
1086,6912	88,7771
1087,6554	89,3869
1088,6196	89,7799
1089,5839	89,9912
1090,5481	90,0644
1091,5123	90,0366
1092,4766	89,935
1093,4408	89,7794
1094,4050	89,5844
1095,3693	89,3602
1096,3335	89,113
1097,2977	88,8477
1098,2620	88,5705
1099,2262	88,2902
1100,1904	88,0144
1101,1547	87,7449
1102,1189	87,474
1103,0831	87,1883
1104,0474	86,8751
1105,0116	86,5299
1105,9758	86,1582
1106,9401	85,7716
1107,9043	85,3804
1108,8685	84,9893
1109,8328	84,5972
1110,7970	84,1996
1111,7612	83,7933
1112,7255	83,3758
1113,6897	82,9448
1114,6539	82,496
1115,6182	82,0245
1116,5824	81,5277
1117,5466	81,0084
1118,5109	80,4753
1119,4751	79,9397
1120,4393	79,4101
1121,4036	78,8886
1122,3678	78,3695
1123,3320	77,8419
1124,2963	77,2933
1125,2605	76,7126
1126,2247	76,0921
1127,1890	75,428
1128,1532	74,721
1129,1174	73,9775
1130,0817	73,2105
1131,0459	72,4396
1132,0101	71,6894
1132,9744	70,9869
1133,9386	70,3591
1134,9028	69,8311
1135,8671	69,4259
1136,8313	69,1641
1137,7955	69,0639
1138,7598	69,1399
1139,7240	69,4011
1140,6882	69,8481
1141,6525	70,4715
1142,6167	71,2527
1143,5809	72,167
1144,5452	73,1878
1145,5094	74,288
1146,4736	75,4393
1147,4379	76,6092
1148,4021	77,7583
1149,3663	78,8422
1150,3306	79,8166
1151,2948	80,6446
1152,2590	81,3035
1153,2233	81,786
1154,1875	82,0981
1155,1517	82,252
1156,1160	82,2602
1157,0802	82,1312
1158,0444	81,8696
1159,0087	81,4787
1159,9729	80,9638
1160,9371	80,3348
1161,9014	79,6073
1162,8656	78,8017
1163,8298	77,9429
1164,7941	77,0608
1165,7583	76,1918
1166,7225	75,3791
1167,6868	74,6717
1168,6510	74,1189
1169,6152	73,7633
1170,5795	73,6326
1171,5437	73,7338
1172,5079	74,0515
1173,4722	74,5508
1174,4364	75,1853
1175,4006	75,9082
1176,3649	76,6824
1177,3291	77,4862
1178,2933	78,3118
1179,2576	79,1587
1180,2218	80,0263
1181,1860	80,9071
1182,1503	81,7853
1183,1145	82,638
1184,0787	83,4382
1185,0430	84,1579
1186,0072	84,7697
1186,9714	85,2493
1187,9357	85,5772
1188,8999	85,7413
1189,8641	85,7389
1190,8284	85,5794
1191,7926	85,2861
1192,7568	84,8971
1193,7211	84,4637
1194,6853	84,0446
1195,6495	83,6981
1196,6138	83,4724
1197,5780	83,3946
1198,5422	83,4623
1199,5065	83,6327
1200,4707	83,8582
1201,4349	84,0607
1202,3992	84,1872
1203,3634	84,2228
1204,3276	84,1963
1205,2919	84,1639
1206,2561	84,1769
1207,2203	84,249
1208,1846	84,3417
1209,1488	84,3762
1210,1130	84,2677
1211,0773	83,9672
1212,0415	83,4908
1213,0057	82,923
1213,9700	82,3917
1214,9342	82,0281
1215,8984	81,9283
1216,8627	82,1307
1217,8269	82,6132
1218,7911	83,3059
1219,7554	84,1149
1220,7196	84,9466
1221,6838	85,7247
1222,6481	86,397
1223,6123	86,933
1224,5765	87,3186
1225,5408	87,5519
1226,5050	87,6414
1227,4692	87,6036
1228,4335	87,4597
1229,3977	87,2315
1230,3619	86,939
1231,3262	86,5997
1232,2904	86,2301
1233,2546	85,848
1234,2189	85,4729
1235,1831	85,1251
1236,1473	84,8236
1237,1116	84,585
1238,0758	84,4229
1239,0400	84,3499
1240,0043	84,3788
1240,9685	84,5226
1241,9327	84,7924
1242,8970	85,1944
1243,8612	85,7281
1244,8254	86,3865
1245,7897	87,1574
1246,7539	88,0246
1247,7181	88,9668
1248,6824	89,9574
1249,6466	90,9655
1250,6108	91,9593
1251,5751	92,9099
1252,5393	93,7945
1253,5035	94,5975
1254,4678	95,311
1255,4320	95,9347
1256,3962	96,4751
1257,3605	96,9436
1258,3247	97,351
1259,2889	97,7037
1260,2532	98,0011
1261,2174	98,2394
1262,1816	98,4182
1263,1459	98,5453
1264,1101	98,6368
1265,0743	98,7104
1266,0386	98,7779
1267,0028	98,8397
1267,9670	98,8866
1268,9313	98,9055
1269,8955	98,8872
1270,8597	98,8302
1271,8240	98,7398
1272,7882	98,6227
1273,7524	98,4829
1274,7167	98,3201
1275,6809	98,1309
1276,6451	97,9114
1277,6094	97,6587
1278,5736	97,3723
1279,5378	97,0551
1280,5021	96,7138
1281,4663	96,3576
1282,4305	95,994
1283,3948	95,6229
1284,3590	95,2328
1285,3232	94,803
1286,2875	94,3135
1287,2517	93,7606
1288,2159	93,1708
1289,1802	92,6018
1290,1444	92,1286
1291,1086	91,8191
1292,0729	91,7126
1293,0371	91,8087
1294,0013	92,0686
1294,9656	92,425
1295,9298	92,7996
1296,8940	93,1219
1297,8583	93,3439
1298,8225	93,4437
1299,7867	93,4213
1300,7510	93,29
1301,7152	93,071
1302,6794	92,7914
1303,6437	92,4855
1304,6079	92,1942
1305,5721	91,9617
1306,5364	91,8253
1307,5006	91,8058
1308,4648	91,9006
1309,4291	92,0843
1310,3933	92,3153
1311,3575	92,5437
1312,3218	92,7206
1313,2860	92,8081
1314,2502	92,7882
1315,2145	92,6651
1316,1787	92,4625
1317,1429	92,2205
1318,1072	91,9898
1319,0714	91,8224
1320,0356	91,7554
1320,9999	91,7973
1321,9641	91,9281
1322,9283	92,1108
1323,8926	92,3037
1324,8568	92,4688
1325,8210	92,5755
1326,7853	92,6026
1327,7495	92,5381
1328,7137	92,3785
1329,6780	92,1285
1330,6422	91,8024
1331,6064	91,4255
1332,5707	91,0303
1333,5349	90,6481
1334,4991	90,3006
1335,4634	89,9974
1336,4276	89,7432
1337,3918	89,5478
1338,3561	89,43
1339,3203	89,4075
1340,2845	89,4757
1341,2488	89,6022
1342,2130	89,7449
1343,1772	89,8701
1344,1415	89,9556
1345,1057	89,9863
1346,0699	89,9499
1347,0342	89,8385
1347,9984	89,6509
1348,9626	89,3948
1349,9269	89,0833
1350,8911	88,7312
1351,8553	88,3519
1352,8196	87,9628
1353,7838	87,5917
1354,7480	87,278
1355,7123	87,0608
1356,6765	86,9611
1357,6407	86,9773
1358,6050	87,0992
1359,5692	87,3275
1360,5334	87,6797
1361,4977	88,1693
1362,4619	88,7695
1363,4261	89,4074
1364,3904	90,014
1365,3546	90,5668
1366,3188	91,0803
1367,2831	91,5721
1368,2473	92,0412
1369,2115	92,4682
1370,1758	92,8303
1371,1400	93,1152
1372,1042	93,3227
1373,0685	93,4564
1374,0327	93,5178
1374,9969	93,5072
1375,9612	93,4239
1376,9254	93,2565
1377,8896	92,9763
1378,8539	92,5456
1379,8181	91,9443
1380,7823	91,1952
1381,7466	90,3615
1382,7108	89,5102
1383,6750	88,6784
1384,6393	87,8769
1385,6035	87,1314
1386,5677	86,5234
1387,5320	86,1653
1388,4962	86,1068
1389,4604	86,2931
1390,4247	86,6279
1391,3889	87,0416
1392,3531	87,5061
1393,3174	88,0211
1394,2816	88,5998
1395,2458	89,262
1396,2101	90,0251
1397,1743	90,8822
1398,1385	91,7811
1399,1028	92,6336
1400,0670	93,3543
1401,0313	93,8944
1401,9955	94,2438
1402,9597	94,4119
1403,9240	94,4103
1404,8882	94,2534
1405,8524	93,9678
1406,8167	93,5898
1407,7809	93,1454
1408,7451	92,6372
1409,7094	92,0574
1410,6736	91,418
1411,6378	90,7694
1412,6021	90,182
1413,5663	89,7023
1414,5305	89,3275
1415,4948	89,017
1416,4590	88,7206
1417,4232	88,4114
1418,3875	88,1134
1419,3517	87,8817
1420,3159	87,7375
1421,2802	87,6504
1422,2444	87,5824
1423,2086	87,5182
1424,1729	87,4649
1425,1371	87,4408
1426,1013	87,468
1427,0656	87,5754
1428,0298	87,8016
1428,9940	88,1819
1429,9583	88,7146
1430,9225	89,344
1431,8867	89,9955
1432,8510	90,6321
1433,8152	91,2737
1434,7794	91,9713
1435,7437	92,7462
1436,7079	93,5299
1437,6721	94,1982
1438,6364	94,6964
1439,6006	95,069
1440,5648	95,3859
1441,5291	95,6905
1442,4933	95,9958
1443,4575	96,2983
1444,4218	96,595
1445,3860	96,8909
1446,3502	97,1966
1447,3145	97,5161
1448,2787	97,8377
1449,2429	98,1399
1450,2072	98,4076
1451,1714	98,6387
1452,1356	98,8382
1453,0999	99,0101
1454,0641	99,1553
1455,0283	99,2776
1455,9926	99,3965
1456,9568	99,5474
1457,9210	99,7295
1458,8853	99,892
1459,8495	100,009
1460,8137	100,088
1461,7780	100,145
1462,7422	100,192
1463,7064	100,234
1464,6707	100,273
1465,6349	100,307
1466,5991	100,331
1467,5634	100,343
1468,5276	100,344
1469,4918	100,334
1470,4561	100,312
1471,4203	100,276
1472,3845	100,233
1473,3488	100,199
1474,3130	100,186
1475,2772	100,185
1476,2415	100,186
1477,2057	100,185
1478,1699	100,184
1479,1342	100,185
1480,0984	100,188
1481,0626	100,194
1482,0269	100,199
1482,9911	100,201
1483,9553	100,197
1484,9196	100,184
1485,8838	100,161
1486,8480	100,126
1487,8123	100,083
1488,7765	100,045
1489,7407	100,029
1490,7050	100,034
1491,6692	100,048
1492,6334	100,059
1493,5977	100,066
1494,5619	100,066
1495,5261	100,058
1496,4904	100,042
1497,4546	100,021
1498,4188	100,003
1499,3831	99,9916
1500,3473	99,9885
1501,3115	99,9939
1502,2758	100,009
1503,2400	100,031
1504,2042	100,054
1505,1685	100,057
1506,1327	100,002
1507,0969	99,8767
1508,0612	99,7516
1509,0254	99,6863
1509,9896	99,6653
1510,9539	99,6657
1511,9181	99,6786
1512,8823	99,6999
1513,8466	99,7237
1514,8108	99,7397
1515,7750	99,735
1516,7393	99,6995
1517,7035	99,6317
1518,6677	99,5397
1519,6320	99,4398
1520,5962	99,3548
1521,5604	99,3043
1522,5247	99,2888
1523,4889	99,2868
1524,4531	99,2723
1525,4174	99,2327
1526,3816	99,174
1527,3458	99,113
1528,3101	99,063
1529,2743	99,0259
1530,2385	98,9923
1531,2028	98,9483
1532,1670	98,8867
1533,1312	98,819
1534,0955	98,7729
1535,0597	98,7674
1536,0239	98,7996
1536,9882	98,8526
1537,9524	98,9004
1538,9166	98,9014
1539,8809	98,8033
1540,8451	98,6135
1541,8093	98,4534
1542,7736	98,3911
1543,7378	98,3864
1544,7020	98,3979
1545,6663	98,4093
1546,6305	98,4161
1547,5947	98,4166
1548,5590	98,4092
1549,5232	98,3923
1550,4874	98,3658
1551,4517	98,3346
1552,4159	98,3081
1553,3801	98,2965
1554,3444	98,3037
1555,3086	98,3204
1556,2728	98,3127
1557,2371	98,215
1558,2013	97,9886
1559,1655	97,7504
1560,1298	97,6299
1561,0940	97,5983
1562,0582	97,5983
1563,0225	97,6064
1563,9867	97,6169
1564,9509	97,6279
1565,9152	97,6345
1566,8794	97,6265
1567,8436	97,5911
1568,8079	97,5257
1569,7721	97,4483
1570,7363	97,3853
1571,7006	97,3499
1572,6648	97,3363
1573,6290	97,3261
1574,5933	97,2935
1575,5575	97,2199
1576,5217	97,1182
1577,4860	97,0285
1578,4502	96,9719
1579,4144	96,9393
1580,3787	96,9138
1581,3429	96,8831
1582,3071	96,8422
1583,2714	96,7927
1584,2356	96,7401
1585,1998	96,6883
1586,1641	96,6369
1587,1283	96,5828
1588,0925	96,525
1589,0568	96,4665
1590,0210	96,4121
1590,9852	96,364
1591,9495	96,3193
1592,9137	96,2714
1593,8779	96,2156
1594,8422	96,153
1595,8064	96,09
1596,7706	96,0336
1597,7349	95,9863
1598,6991	95,9445
1599,6633	95,9013
1600,6276	95,85
1601,5918	95,7885
1602,5560	95,7204
1603,5203	95,6531
1604,4845	95,5919
1605,4487	95,535
1606,4130	95,4736
1607,3772	95,3959
1608,3414	95,2977
1609,3057	95,19
1610,2699	95,0951
1611,2341	95,0312
1612,1984	94,9996
1613,1626	94,9831
1614,1268	94,9468
1615,0911	94,8491
1616,0553	94,676
1617,0195	94,4771
1617,9838	94,3254
1618,9480	94,2429
1619,9122	94,202
1620,8765	94,1635
1621,8407	94,0965
1622,8049	93,9921
1623,7692	93,8699
1624,7334	93,7595
1625,6976	93,6698
1626,6619	93,5848
1627,6261	93,4885
1628,5903	93,385
1629,5546	93,2975
1630,5188	93,2479
1631,4830	93,2394
1632,4473	93,2488
1633,4115	93,2227
1634,3757	93,0812
1635,3400	92,7737
1636,3042	92,3848
1637,2684	92,075
1638,2327	91,889
1639,1969	91,7771
1640,1611	91,6983
1641,1254	91,6417
1642,0896	91,6071
1643,0538	91,5809
1644,0181	91,5155
1644,9823	91,3245
1645,9465	90,9452
1646,9108	90,4697
1647,8750	90,1131
1648,8392	89,9716
1649,8035	89,9712
1650,7677	89,9594
1651,7319	89,724
1652,6962	89,0656
1653,6604	88,1568
1654,6246	87,5089
1655,5889	87,2424
1656,5531	87,1681
1657,5173	87,1454
1658,4816	87,1078
1659,4458	87,007
1660,4100	86,7909
1661,3743	86,4298
1662,3385	85,9746
1663,3027	85,5511
1664,2670	85,2529
1665,2312	85,0727
1666,1954	84,9284
1667,1597	84,7012
1668,1239	84,2716
1669,0881	83,6012
1670,0524	82,8237
1671,0166	82,1514
1671,9808	81,6515
1672,9451	81,2209
1673,9093	80,7235
1674,8735	80,1025
1675,8378	79,4233
1676,8020	78,8213
1677,7662	78,388
1678,7305	78,121
1679,6947	77,9525
1680,6589	77,7736
1681,6232	77,421
1682,5874	76,6906
1683,5516	75,5376
1684,5159	74,3288
1685,4801	73,4977
1686,4443	73,0717
1687,4086	72,863
1688,3728	72,7321
1689,3370	72,6308
1690,3013	72,5653
1691,2655	72,5565
1692,2297	72,6129
1693,1940	72,7194
1694,1582	72,8373
1695,1224	72,914
1696,0867	72,9087
1697,0509	72,8384
1698,0151	72,8063
1698,9794	72,9363
1699,9436	73,2558
1700,9078	73,6923
1701,8721	74,172
1702,8363	74,6785
1703,8005	75,2386
1704,7648	75,8817
1705,7290	76,6029
1706,6932	77,3538
1707,6575	78,077
1708,6217	78,7505
1709,5859	79,3928
1710,5502	80,0315
1711,5144	80,6776
1712,4786	81,3199
1713,4429	81,9401
1714,4071	82,5423
1715,3713	83,1838
1716,3356	83,952
1717,2998	84,8274
1718,2640	85,6445
1719,2283	86,3006
1720,1925	86,8292
1721,1567	87,3008
1722,1210	87,7553
1723,0852	88,1886
1724,0494	88,5618
1725,0137	88,8251
1725,9779	88,9464
1726,9421	88,9285
1727,9064	88,8024
1728,8706	88,6041
1729,8348	88,3413
1730,7991	87,9571
1731,7633	87,315
1732,7275	86,2848
1733,6918	84,9615
1734,6560	83,6978
1735,6202	82,7465
1736,5845	82,0771
1737,5487	81,5345
1738,5129	80,9918
1739,4772	80,4103
1740,4414	79,8593
1741,4056	79,4781
1742,3699	79,3753
1743,3341	79,5512
1744,2983	79,9202
1745,2626	80,3811
1746,2268	80,8613
1747,1910	81,3289
1748,1553	81,787
1749,1195	82,2553
1750,0837	82,7399
1751,0480	83,2267
1752,0122	83,7131
1752,9764	84,2273
1753,9407	84,8136
1754,9049	85,5041
1755,8691	86,2954
1756,8334	87,1453
1757,7976	87,999
1758,7618	88,8339
1759,7261	89,6774
1760,6903	90,571
1761,6545	91,5127
1762,6188	92,4412
1763,5830	93,2884
1764,5472	94,0365
1765,5115	94,7196
1766,4757	95,3839
1767,4399	96,0533
1768,4042	96,7213
1769,3684	97,3669
1770,3326	97,9819
1771,2969	98,5757
1772,2611	99,1387
1773,2253	99,6161
1774,1896	99,9554
1775,1538	100,162
1776,1180	100,284
1777,0823	100,376
1778,0465	100,476
1779,0107	100,596
1779,9750	100,729
1780,9392	100,859
1781,9034	100,974
1782,8677	101,069
1783,8319	101,145
1784,7961	101,2
1785,7604	101,238
1786,7246	101,263
1787,6888	101,287
1788,6531	101,318
1789,6173	101,358
1790,5815	101,4
1791,5458	101,436
1792,5100	101,46
1793,4742	101,469
1794,4385	101,469
1795,4027	101,467
1796,3669	101,471
1797,3312	101,482
1798,2954	101,497
1799,2596	101,507
1800,2239	101,503
1801,1881	101,483
1802,1523	101,453
1803,1166	101,424
1804,0808	101,407
1805,0450	101,407
1806,0093	101,423
1806,9735	101,445
1807,9377	101,462
1808,9020	101,464
1809,8662	101,449
1810,8304	101,427
1811,7947	101,413
1812,7589	101,415
1813,7231	101,434
1814,6874	101,46
1815,6516	101,479
1816,6158	101,479
1817,5801	101,455
1818,5443	101,411
1819,5085	101,364
1820,4728	101,33
1821,4370	101,321
1822,4012	101,342
1823,3655	101,389
1824,3297	101,452
1825,2939	101,517
1826,2582	101,572
1827,2224	101,61
1828,1866	101,631
1829,1509	101,636
1830,1151	101,626
1831,0793	101,607
1832,0436	101,583
1833,0078	101,562
1833,9720	101,55
1834,9363	101,548
1835,9005	101,554
1836,8647	101,562
1837,8290	101,57
1838,7932	101,578
1839,7574	101,588
1840,7217	101,6
1841,6859	101,609
1842,6501	101,608
1843,6144	101,593
1844,5786	101,574
1845,5428	101,56
1846,5071	101,558
1847,4713	101,565
1848,4355	101,577
1849,3998	101,588
1850,3640	101,592
1851,3282	101,583
1852,2925	101,563
1853,2567	101,537
1854,2209	101,512
1855,1852	101,498
1856,1494	101,5
1857,1136	101,523
1858,0779	101,566
1859,0421	101,621
1860,0063	101,681
1860,9706	101,73
1861,9348	101,757
1862,8990	101,759
1863,8633	101,74
1864,8275	101,71
1865,7917	101,686
1866,7560	101,683
1867,7202	101,709
1868,6844	101,754
1869,6487	101,791
1870,6129	101,799
1871,5771	101,778
1872,5414	101,75
1873,5056	101,734
1874,4698	101,742
1875,4341	101,777
1876,3983	101,825
1877,3625	101,871
1878,3268	101,9
1879,2910	101,908
1880,2552	101,899
1881,2195	101,883
1882,1837	101,87
1883,1479	101,862
1884,1122	101,857
1885,0764	101,851
1886,0406	101,842
1887,0049	101,835
1887,9691	101,836
1888,9333	101,852
1889,8976	101,88
1890,8618	101,909
1891,8260	101,928
1892,7903	101,933
1893,7545	101,928
1894,7188	101,922
1895,6830	101,921
1896,6472	101,928
1897,6115	101,941
1898,5757	101,957
1899,5399	101,975
1900,5042	101,995
1901,4684	102,018
1902,4326	102,037
1903,3969	102,045
1904,3611	102,037
1905,3253	102,016
1906,2896	101,99
1907,2538	101,972
1908,2180	101,97
1909,1823	101,987
1910,1465	102,019
1911,1107	102,059
1912,0750	102,101
1913,0392	102,139
1914,0034	102,167
1914,9677	102,171
1915,9319	102,138
1916,8961	102,064
1917,8604	101,966
1918,8246	101,879
1919,7888	101,838
1920,7531	101,859
1921,7173	101,935
1922,6815	102,038
1923,6458	102,133
1924,6100	102,192
1925,5742	102,206
1926,5385	102,189
1927,5027	102,159
1928,4669	102,132
1929,4312	102,117
1930,3954	102,117
1931,3596	102,133
1932,3239	102,166
1933,2881	102,216
1934,2523	102,276
1935,2166	102,332
1936,1808	102,366
1937,1450	102,364
1938,1093	102,33
1939,0735	102,279
1940,0377	102,243
1941,0020	102,255
1941,9662	102,334
1942,9304	102,463
1943,8947	102,595
1944,8589	102,674
1945,8231	102,674
1946,7874	102,605
1947,7516	102,505
1948,7158	102,415
1949,6801	102,363
1950,6443	102,354
1951,6085	102,37
1952,5728	102,388
1953,5370	102,399
1954,5012	102,416
1955,4655	102,453
1956,4297	102,515
1957,3939	102,576
1958,3582	102,594
1959,3224	102,531
1960,2866	102,385
1961,2509	102,204
1962,2151	102,063
1963,1793	102,023
1964,1436	102,1
1965,1078	102,255
1966,0720	102,417
1967,0363	102,516
1968,0005	102,523
1968,9647	102,454
1969,9290	102,351
1970,8932	102,25
1971,8574	102,169
1972,8217	102,112
1973,7859	102,075
1974,7501	102,048
1975,7144	102,01
1976,6786	101,926
1977,6428	101,769
1978,6071	101,54
1979,5713	101,282
1980,5355	101,064
1981,4998	100,949
1982,4640	100,967
1983,4282	101,108
1984,3925	101,328
1985,3567	101,564
1986,3209	101,762
1987,2852	101,892
1988,2494	101,952
1989,2136	101,961
1990,1779	101,949
1991,1421	101,945
1992,1063	101,969
1993,0706	102,024
1994,0348	102,094
1994,9990	102,153
1995,9633	102,173
1996,9275	102,141
1997,8917	102,066
1998,8560	101,983
1999,8202	101,943
2000,7844	101,994
2001,7487	102,153
2002,7129	102,398
2003,6771	102,673
2004,6414	102,897
2005,6056	102,992
2006,5698	102,913
2007,5341	102,672
2008,4983	102,333
2009,4625	101,984
2010,4268	101,695
2011,3910	101,501
2012,3552	101,404
2013,3195	101,395
2014,2837	101,476
2015,2479	101,652
2016,2122	101,905
2017,1764	102,177
2018,1406	102,368
2019,1049	102,387
2020,0691	102,204
2021,0333	101,873
2021,9976	101,509
2022,9618	101,235
2023,9260	101,136
2024,8903	101,233
2025,8545	101,482
2026,8187	101,815
2027,7830	102,16
2028,7472	102,462
2029,7114	102,671
2030,6757	102,751
2031,6399	102,679
2032,6041	102,469
2033,5684	102,173
2034,5326	101,875
2035,4968	101,663
2036,4611	101,594
2037,4253	101,681
2038,3895	101,884
2039,3538	102,129
2040,3180	102,329
2041,2822	102,423
2042,2465	102,392
2043,2107	102,266
2044,1749	102,091
2045,1392	101,896
2046,1034	101,688
2047,0676	101,466
2048,0320	101,249
2048,9961	101,084
2049,9604	101,024
2050,9246	101,097
2051,8889	101,284
2052,8530	101,529
2053,8174	101,763
2054,7815	101,927
2055,7458	101,997
2056,7100	101,982
2057,6743	101,913
2058,6384	101,823
2059,6028	101,738
2060,5669	101,676
2061,5313	101,644
2062,4954	101,639
2063,4597	101,642
2064,4238	101,625
2065,3882	101,567
2066,3523	101,467
2067,3167	101,352
2068,2808	101,266
2069,2451	101,243
2070,2092	101,298
2071,1736	101,412
2072,1377	101,549
2073,1021	101,669
2074,0662	101,746
2075,0305	101,771
2075,9946	101,748
2076,9590	101,687
2077,9231	101,603
2078,8875	101,514
2079,8516	101,441
2080,8159	101,402
2081,7800	101,402
2082,7444	101,432
2083,7085	101,471
2084,6729	101,501
2085,6370	101,515
2086,6013	101,519
2087,5654	101,528
2088,5298	101,552
2089,4939	101,592
2090,4583	101,641
2091,4224	101,687
2092,3867	101,724
2093,3508	101,752
2094,3152	101,772
2095,2793	101,789
2096,2437	101,803
2097,2078	101,816
2098,1721	101,824
2099,1362	101,821
2100,1006	101,806
2101,0647	101,778
2102,0291	101,744
2102,9932	101,714
2103,9575	101,694
2104,9216	101,681
2105,8860	101,665
2106,8501	101,633
2107,8145	101,582
2108,7786	101,518
2109,7429	101,453
2110,7070	101,399
2111,6714	101,365
2112,6355	101,354
2113,5999	101,372
2114,5640	101,42
2115,5283	101,497
2116,4924	101,586
2117,4568	101,66
2118,4209	101,691
2119,3853	101,67
2120,3494	101,612
2121,3137	101,553
2122,2778	101,529
2123,2422	101,562
2124,2063	101,645
2125,1707	101,752
2126,1348	101,853
2127,0991	101,935
2128,0632	102,001
2129,0276	102,062
2129,9917	102,129
2130,9561	102,194
2131,9202	102,238
2132,8845	102,238
2133,8486	102,189
2134,8130	102,113
2135,7771	102,055
2136,7415	102,055
2137,7056	102,124
2138,6699	102,229
2139,6340	102,309
2140,5984	102,309
2141,5625	102,208
2142,5269	102,036
2143,4910	101,859
2144,4553	101,742
2145,4194	101,723
2146,3838	101,796
2147,3479	101,925
2148,3123	102,062
2149,2764	102,169
2150,2407	102,23
2151,2048	102,246
2152,1692	102,232
2153,1333	102,208
2154,0977	102,195
2155,0618	102,198
2156,0261	102,199
2156,9902	102,152
2157,9546	102,007
2158,9187	101,746
2159,8831	101,406
2160,8472	101,058
2161,8115	100,757
2162,7756	100,522
2163,7400	100,342
2164,7041	100,209
2165,6685	100,135
2166,6326	100,152
2167,5969	100,283
2168,5610	100,527
2169,5254	100,844
2170,4895	101,173
2171,4539	101,447
2172,4180	101,619
2173,3823	101,671
2174,3464	101,611
2175,3108	101,467
2176,2749	101,278
2177,2393	101,086
2178,2034	100,932
2179,1677	100,842
2180,1318	100,817
2181,0962	100,831
2182,0603	100,846
2183,0247	100,835
2183,9888	100,796
2184,9531	100,758
2185,9172	100,755
2186,8816	100,803
2187,8457	100,892
2188,8101	100,99
2189,7742	101,056
2190,7385	101,06
2191,7026	100,995
2192,6670	100,873
2193,6311	100,73
2194,5955	100,611
2195,5596	100,56
2196,5239	100,602
2197,4880	100,731
2198,4524	100,911
2199,4165	101,086
2200,3809	101,208
2201,3450	101,252
2202,3093	101,224
2203,2734	101,152
2204,2378	101,067
2205,2019	100,991
2206,1663	100,929
2207,1304	100,876
2208,0947	100,825
2209,0588	100,774
2210,0232	100,73
2210,9873	100,706
2211,9517	100,718
2212,9158	100,772
2213,8801	100,864
2214,8442	100,969
2215,8086	101,054
2216,7727	101,085
2217,7371	101,046
2218,7012	100,946
2219,6655	100,813
2220,6296	100,684
2221,5940	100,592
2222,5581	100,553
2223,5225	100,562
2224,4866	100,597
2225,4509	100,627
2226,4150	100,627
2227,3794	100,586
2228,3435	100,52
2229,3079	100,458
2230,2720	100,432
2231,2363	100,455
2232,2004	100,514
2233,1648	100,577
2234,1289	100,61
2235,0933	100,599
2236,0574	100,554
2237,0217	100,5
2237,9858	100,463
2238,9502	100,456
2239,9143	100,481
2240,8787	100,53
2241,8428	100,591
2242,8071	100,65
2243,7712	100,689
2244,7356	100,688
2245,6997	100,641
2246,6641	100,559
2247,6282	100,473
2248,5925	100,422
2249,5566	100,433
2250,5210	100,504
2251,4851	100,609
2252,4495	100,707
2253,4136	100,759
2254,3779	100,747
2255,3420	100,672
2256,3064	100,553
2257,2705	100,417
2258,2349	100,295
2259,1990	100,217
2260,1633	100,2
2261,1274	100,247
2262,0918	100,334
2263,0559	100,423
2264,0203	100,474
2264,9844	100,469
2265,9487	100,416
2266,9128	100,349
2267,8772	100,308
2268,8413	100,311
2269,8057	100,346
2270,7698	100,382
2271,7341	100,382
2272,6982	100,33
2273,6626	100,234
2274,6267	100,122
2275,5911	100,026
2276,5552	99,9662
2277,5195	99,9453
2278,4836	99,9524
2279,4480	99,9707
2280,4121	99,9863
2281,3765	99,9914
2282,3406	99,9849
2283,3049	99,9691
2284,2690	99,9484
2285,2334	99,9267
2286,1975	99,9078
2287,1619	99,8942
2288,1260	99,8872
2289,0903	99,8867
2290,0544	99,8914
2291,0188	99,8991
2291,9829	99,9075
2292,9473	99,9157
2293,9114	99,9241
2294,8757	99,9349
2295,8398	99,9497
2296,8042	99,9677
2297,7683	99,9845
2298,7327	99,993
2299,6968	99,9868
2300,6611	99,9637
2301,6252	99,9279
2302,5896	99,8876
2303,5537	99,8517
2304,5181	99,8252
2305,4822	99,8074
2306,4465	99,7928
2307,4106	99,7736
2308,3750	99,743
2309,3391	99,6965
2310,3035	99,6336
2311,2676	99,5582
2312,2319	99,4795
2313,1960	99,4101
2314,1604	99,3617
2315,1245	99,339
2316,0889	99,336
2317,0530	99,3367
2318,0173	99,3216
2318,9814	99,2776
2319,9458	99,2071
2320,9099	99,1297
2321,8743	99,071
2322,8384	99,0472
2323,8027	99,0551
2324,7668	99,0773
2325,7312	99,0959
2326,6953	99,1027
2327,6597	99,1026
2328,6238	99,107
2329,5881	99,1249
2330,5522	99,1542
2331,5166	99,1813
2332,4807	99,1881
2333,4451	99,1623
2334,4092	99,1017
2335,3735	99,0143
2336,3376	98,9157
2337,3020	98,8275
2338,2661	98,7716
2339,2305	98,7635
2340,1946	98,8043
2341,1589	98,8796
2342,1230	98,9652
2343,0874	99,0388
2344,0515	99,0914
2345,0159	99,1294
2345,9800	99,1639
2346,9443	99,1987
2347,9084	99,2291
2348,8728	99,2452
2349,8369	99,2361
2350,8013	99,1913
2351,7654	99,1031
2352,7297	98,9717
2353,6938	98,8095
2354,6582	98,6419
2355,6223	98,4987
2356,5867	98,404
2357,5508	98,3704
2358,5151	98,3938
2359,4792	98,4505
2360,4436	98,505
2361,4077	98,5308
2362,3721	98,5276
2363,3362	98,5181
2364,3005	98,5281
2365,2646	98,5671
2366,2290	98,6253
2367,1931	98,6881
2368,1575	98,7515
2369,1216	98,8246
2370,0859	98,9175
2371,0500	99,0288
2372,0144	99,1428
2372,9785	99,2388
2373,9429	99,3044
2374,9070	99,3414
2375,8713	99,3626
2376,8354	99,3822
2377,7998	99,4089
2378,7639	99,4444
2379,7283	99,4861
2380,6924	99,531
2381,6567	99,5766
2382,6208	99,6193
2383,5852	99,6532
2384,5493	99,6714
2385,5137	99,6692
2386,4778	99,6479
2387,4421	99,6158
2388,4063	99,585
2389,3706	99,5657
2390,3347	99,561
2391,2991	99,5661
2392,2632	99,5718
2393,2275	99,5704
2394,1917	99,5595
2395,1560	99,5433
2396,1201	99,5283
2397,0845	99,5198
2398,0486	99,5182
2399,0129	99,5194
2399,9771	99,5167
2400,9414	99,5045
2401,9055	99,4803
2402,8699	99,4456
2403,8340	99,4046
2404,7983	99,3625
2405,7625	99,3226
2406,7268	99,2855
2407,6909	99,2485
2408,6553	99,2083
2409,6194	99,1637
2410,5837	99,1185
2411,5479	99,0809
2412,5122	99,0603
2413,4763	99,0625
2414,4407	99,0848
2415,4048	99,1163
2416,3691	99,1417
2417,3333	99,148
2418,2976	99,13
2419,2617	99,0914
2420,2261	99,042
2421,1902	98,9926
2422,1545	98,9515
2423,1187	98,9224
2424,0830	98,9052
2425,0471	98,8968
2426,0115	98,8919
2426,9756	98,8847
2427,9399	98,8713
2428,9041	98,8522
2429,8684	98,8325
2430,8325	98,8199
2431,7969	98,819
2432,7610	98,8274
2433,7253	98,8347
2434,6895	98,8284
2435,6538	98,8003
2436,6179	98,7529
2437,5823	98,6992
2438,5464	98,6555
2439,5107	98,6328
2440,4749	98,6304
2441,4392	98,6363
2442,4033	98,6346
2443,3677	98,6151
2444,3318	98,5794
2445,2961	98,5395
2446,2603	98,5102
2447,2246	98,4998
2448,1887	98,5054
2449,1531	98,515
2450,1172	98,5146
2451,0815	98,4956
2452,0457	98,4579
2453,0100	98,4089
2453,9741	98,359
2454,9385	98,3181
2455,9026	98,2938
2456,8669	98,2906
2457,8311	98,309
2458,7954	98,344
2459,7595	98,3851
2460,7239	98,4181
2461,6880	98,4307
2462,6523	98,4175
2463,6165	98,382
2464,5808	98,3349
2465,5449	98,2895
2466,5093	98,256
2467,4734	98,2379
2468,4377	98,2318
2469,4019	98,2295
2470,3662	98,2222
2471,3303	98,2043
2472,2947	98,176
2473,2588	98,1429
2474,2231	98,1134
2475,1873	98,0945
2476,1516	98,088
2477,1157	98,0907
2478,0801	98,096
2479,0442	98,098
2480,0085	98,0937
2480,9727	98,0835
2481,9370	98,0693
2482,9011	98,0522
2483,8655	98,0308
2484,8296	98,0019
2485,7939	97,9616
2486,7581	97,9087
2487,7224	97,8464
2488,6865	97,7821
2489,6509	97,726
2490,6150	97,6867
2491,5793	97,6675
2492,5435	97,665
2493,5078	97,6705
2494,4719	97,6734
2495,4363	97,6653
2496,4004	97,642
2497,3647	97,6034
2498,3289	97,5529
2499,2932	97,497
2500,2573	97,4438
2501,2217	97,4021
2502,1858	97,377
2503,1501	97,3675
2504,1143	97,3655
2505,0786	97,3604
2506,0427	97,3461
2507,0071	97,3252
2507,9712	97,3078
2508,9355	97,304
2509,8997	97,3152
2510,8640	97,3315
2511,8281	97,3371
2512,7925	97,3207
2513,7566	97,2834
2514,7209	97,2387
2515,6851	97,2037
2516,6494	97,1892
2517,6135	97,1941
2518,5779	97,2079
2519,5420	97,2184
2520,5063	97,2181
2521,4705	97,2058
2522,4348	97,1843
2523,3989	97,157
2524,3633	97,1257
2525,3274	97,0925
2526,2917	97,0602
2527,2559	97,0321
2528,2202	97,0092
2529,1843	96,9883
2530,1487	96,9627
2531,1128	96,9265
2532,0771	96,879
2533,0413	96,8266
2534,0056	96,7802
2534,9697	96,7497
2535,9341	96,7381
2536,8982	96,7392
2537,8625	96,7405
2538,8267	96,729
2539,7910	96,6975
2540,7551	96,6477
2541,7195	96,5889
2542,6836	96,5337
2543,6479	96,4927
2544,6121	96,4708
2545,5764	96,4659
2546,5405	96,4705
2547,5049	96,4743
2548,4690	96,4687
2549,4333	96,4497
2550,3975	96,419
2551,3618	96,3831
2552,3259	96,3504
2553,2903	96,3278
2554,2544	96,3185
2555,2188	96,3216
2556,1829	96,3335
2557,1472	96,3497
2558,1113	96,3659
2559,0757	96,3791
2560,0398	96,3877
2561,0042	96,3917
2561,9683	96,3917
2562,9326	96,3882
2563,8967	96,3816
2564,8611	96,3722
2565,8252	96,3619
2566,7896	96,3549
2567,7537	96,3563
2568,7180	96,369
2569,6821	96,3919
2570,6465	96,4193
2571,6106	96,4447
2572,5750	96,4642
2573,5391	96,4786
2574,5034	96,4918
2575,4675	96,507
2576,4319	96,5253
2577,3960	96,5455
2578,3604	96,5666
2579,3245	96,5896
2580,2888	96,6157
2581,2529	96,6455
2582,2173	96,6774
2583,1814	96,709
2584,1458	96,7386
2585,1099	96,7661
2586,0742	96,7923
2587,0383	96,8178
2588,0027	96,8435
2588,9668	96,8712
2589,9312	96,9044
2590,8953	96,9459
2591,8596	96,9953
2592,8237	97,0476
2593,7881	97,0949
2594,7522	97,131
2595,7166	97,1546
2596,6807	97,1682
2597,6450	97,1751
2598,6091	97,176
2599,5735	97,169
2600,5376	97,1526
2601,5020	97,1285
2602,4661	97,1022
2603,4304	97,0795
2604,3945	97,0627
2605,3589	97,05
2606,3230	97,0366
2607,2874	97,018
2608,2515	96,992
2609,2158	96,9593
2610,1799	96,9226
2611,1443	96,8866
2612,1084	96,8563
2613,0728	96,836
2614,0369	96,826
2615,0012	96,8215
2615,9653	96,8133
2616,9297	96,7922
2617,8938	96,7542
2618,8582	96,703
2619,8223	96,649
2620,7866	96,6036
2621,7507	96,574
2622,7151	96,5599
2623,6792	96,5539
2624,6436	96,5457
2625,6077	96,527
2626,5720	96,4955
2627,5361	96,4554
2628,5005	96,4151
2629,4646	96,3827
2630,4290	96,362
2631,3931	96,3508
2632,3574	96,3434
2633,3215	96,3341
2634,2859	96,3212
2635,2500	96,3069
2636,2144	96,2956
2637,1785	96,2902
2638,1428	96,2902
2639,1069	96,2927
2640,0713	96,2944
2641,0354	96,294
2641,9998	96,2927
2642,9639	96,2933
2643,9282	96,2984
2644,8923	96,3099
2645,8567	96,3275
2646,8208	96,35
2647,7852	96,3748
2648,7493	96,3992
2649,7136	96,4213
2650,6777	96,4408
2651,6421	96,459
2652,6062	96,4774
2653,5706	96,4969
2654,5347	96,5169
2655,4990	96,536
2656,4631	96,5532
2657,4275	96,5692
2658,3916	96,586
2659,3560	96,6066
2660,3201	96,6335
2661,2844	96,6677
2662,2485	96,7085
2663,2129	96,7542
2664,1770	96,8021
2665,1414	96,8493
2666,1055	96,8929
2667,0698	96,9302
2668,0339	96,9592
2668,9983	96,9787
2669,9624	96,9887
2670,9268	96,9911
2671,8909	96,9904
2672,8552	96,993
2673,8193	97,0061
2674,7837	97,0347
2675,7478	97,0788
2676,7122	97,1329
2677,6763	97,1876
2678,6406	97,2336
2679,6047	97,2661
2680,5691	97,2863
2681,5332	97,3003
2682,4976	97,3155
2683,4617	97,3374
2684,4260	97,3676
2685,3901	97,4049
2686,3545	97,4469
2687,3186	97,4914
2688,2830	97,5374
2689,2471	97,5844
2690,2114	97,6321
2691,1755	97,6798
2692,1399	97,7262
2693,1040	97,7691
2694,0684	97,8062
2695,0325	97,8361
2695,9968	97,8592
2696,9609	97,8781
2697,9253	97,8964
2698,8894	97,917
2699,8538	97,94
2700,8179	97,9632
2701,7822	97,9837
2702,7463	97,9996
2703,7107	98,012
2704,6748	98,0232
2705,6392	98,035
2706,6033	98,0476
2707,5676	98,0588
2708,5317	98,0662
2709,4961	98,0679
2710,4602	98,0639
2711,4246	98,0553
2712,3887	98,0437
2713,3530	98,0316
2714,3171	98,0219
2715,2815	98,0177
2716,2456	98,021
2717,2100	98,0305
2718,1741	98,0423
2719,1384	98,0501
2720,1025	98,0491
2721,0669	98,0381
2722,0310	98,0201
2722,9954	98,0005
2723,9595	97,9845
2724,9238	97,9737
2725,8879	97,966
2726,8523	97,9568
2727,8164	97,9421
2728,7808	97,9202
2729,7449	97,8926
2730,7092	97,8622
2731,6733	97,8309
2732,6377	97,7982
2733,6018	97,7616
2734,5662	97,7195
2735,5303	97,6738
2736,4946	97,6299
2737,4587	97,595
2738,4231	97,5738
2739,3872	97,5656
2740,3516	97,5642
2741,3157	97,5613
2742,2800	97,5501
2743,2441	97,5281
2744,2085	97,4976
2745,1726	97,4633
2746,1370	97,4303
2747,1011	97,4022
2748,0654	97,3813
2749,0295	97,3689
2749,9939	97,3654
2750,9580	97,3697
2751,9224	97,3793
2752,8865	97,3903
2753,8508	97,3987
2754,8149	97,4024
2755,7793	97,4016
2756,7434	97,3989
2757,7078	97,3972
2758,6719	97,3981
2759,6362	97,4015
2760,6003	97,4057
2761,5647	97,4097
2762,5288	97,4133
2763,4932	97,4174
2764,4573	97,4225
2765,4216	97,4279
2766,3857	97,4316
2767,3501	97,4319
2768,3142	97,4285
2769,2786	97,4227
2770,2427	97,417
2771,2070	97,4131
2772,1711	97,4123
2773,1355	97,4156
2774,0996	97,4247
2775,0640	97,4417
2776,0281	97,4676
2776,9924	97,5008
2777,9565	97,5367
2778,9209	97,5698
2779,8850	97,5966
2780,8494	97,617
2781,8135	97,6352
2782,7778	97,6566
2783,7419	97,6853
2784,7063	97,7216
2785,6704	97,7619
2786,6348	97,8004
2787,5989	97,832
2788,5632	97,8541
2789,5273	97,8682
2790,4917	97,8782
2791,4558	97,8879
2792,4202	97,8995
2793,3843	97,9118
2794,3486	97,9222
2795,3127	97,9284
2796,2771	97,9302
2797,2412	97,9298
2798,2056	97,9297
2799,1697	97,9315
2800,1340	97,9348
2801,0981	97,9383
2802,0625	97,9415
2803,0266	97,9448
2803,9910	97,9485
2804,9551	97,9514
2805,9194	97,9506
2806,8835	97,9432
2807,8479	97,9286
2808,8120	97,9099
2809,7764	97,8927
2810,7405	97,8814
2811,7048	97,8768
2812,6689	97,8754
2813,6333	97,8715
2814,5974	97,8606
2815,5618	97,842
2816,5259	97,8182
2817,4902	97,7935
2818,4543	97,7718
2819,4187	97,7545
2820,3828	97,7409
2821,3472	97,7286
2822,3113	97,7147
2823,2756	97,6967
2824,2397	97,6739
2825,2041	97,6473
2826,1682	97,6189
2827,1326	97,5911
2828,0967	97,5657
2829,0610	97,5432
2830,0251	97,5229
2830,9895	97,5036
2831,9536	97,4832
2832,9180	97,46
2833,8821	97,4332
2834,8464	97,4038
2835,8105	97,3749
2836,7749	97,3498
2837,7390	97,3308
2838,7034	97,317
2839,6675	97,3056
2840,6318	97,2935
2841,5959	97,28
2842,5603	97,2667
2843,5244	97,2556
2844,4888	97,2466
2845,4529	97,2369
2846,4172	97,2232
2847,3813	97,2046
2848,3457	97,1851
2849,3098	97,1706
2850,2742	97,1643
2851,2383	97,1637
2852,2026	97,1618
2853,1667	97,1518
2854,1311	97,1322
2855,0952	97,1071
2856,0596	97,084
2857,0237	97,0685
2857,9880	97,0617
2858,9521	97,0598
2859,9165	97,0569
2860,8806	97,0483
2861,8450	97,0323
2862,8091	97,0108
2863,7734	96,9883
2864,7375	96,9702
2865,7019	96,9614
2866,6660	96,9639
2867,6304	96,9759
2868,5945	96,9919
2869,5588	97,0047
2870,5229	97,0084
2871,4873	97,001
2872,4514	96,9854
2873,4158	96,9675
2874,3799	96,9532
2875,3442	96,9462
2876,3083	96,9469
2877,2727	96,9533
2878,2368	96,963
2879,2012	96,9748
2880,1653	96,989
2881,1296	97,0064
2882,0938	97,0265
2883,0581	97,0459
2884,0222	97,0598
2884,9866	97,0637
2885,9507	97,0567
2886,9150	97,043
2887,8792	97,0294
2888,8435	97,0228
2889,8076	97,0255
2890,7720	97,0351
2891,7361	97,0464
2892,7004	97,0547
2893,6646	97,0584
2894,6289	97,059
2895,5930	97,0574
2896,5574	97,0525
2897,5215	97,0408
2898,4858	97,02
2899,4500	96,9924
2900,4143	96,9654
2901,3784	96,9487
2902,3428	96,9488
2903,3069	96,9653
2904,2712	96,9914
2905,2354	97,0179
2906,1997	97,0381
2907,1638	97,0501
2908,1282	97,0567
2909,0923	97,0619
2910,0566	97,0681
2911,0208	97,076
2911,9851	97,0852
2912,9492	97,0958
2913,9136	97,1086
2914,8777	97,1249
2915,8420	97,1449
2916,8062	97,168
2917,7705	97,1926
2918,7346	97,2169
2919,6990	97,2391
2920,6631	97,2571
2921,6274	97,2691
2922,5916	97,2744
2923,5559	97,2738
2924,5200	97,2697
2925,4844	97,2656
2926,4485	97,2637
2927,4128	97,2647
2928,3770	97,2671
2929,3413	97,2677
2930,3054	97,2632
2931,2698	97,2518
2932,2339	97,2336
2933,1982	97,2116
2934,1624	97,1899
2935,1267	97,1723
2936,0908	97,16
2937,0552	97,1507
2938,0193	97,1393
2938,9836	97,1208
2939,9478	97,0924
2940,9121	97,0556
2941,8762	97,0154
2942,8406	96,9781
2943,8047	96,9487
2944,7690	96,9287
2945,7332	96,9164
2946,6975	96,9077
2947,6616	96,8983
2948,6260	96,886
2949,5901	96,8709
2950,5544	96,8548
2951,5186	96,8398
2952,4829	96,8271
2953,4470	96,8174
2954,4114	96,8112
2955,3755	96,8097
2956,3398	96,8145
2957,3040	96,8258
2958,2683	96,8412
2959,2324	96,8558
2960,1968	96,8646
2961,1609	96,8655
2962,1252	96,8614
2963,0894	96,8588
2964,0537	96,865
2965,0178	96,8837
2965,9822	96,9126
2966,9463	96,9444
2967,9106	96,9701
2968,8748	96,9829
2969,8391	96,9803
2970,8032	96,9638
2971,7676	96,9357
2972,7317	96,8971
2973,6960	96,8468
2974,6602	96,7835
2975,6245	96,7093
2976,5886	96,6322
2977,5530	96,5656
2978,5171	96,524
2979,4814	96,5163
2980,4456	96,5417
2981,4099	96,5897
2982,3740	96,6444
2983,3384	96,6908
2984,3025	96,7185
2985,2668	96,7227
2986,2310	96,7023
2987,1953	96,6584
2988,1594	96,5951
2989,1238	96,5207
2990,0879	96,4479
2991,0522	96,3909
2992,0164	96,3613
2992,9807	96,3631
2993,9448	96,392
2994,9092	96,4373
2995,8733	96,486
2996,8376	96,5267
2997,8018	96,5519
2998,7661	96,5586
2999,7302	96,5483
3000,6946	96,5267
3001,6587	96,5031
3002,6230	96,4869
3003,5872	96,4845
3004,5515	96,4948
3005,5156	96,5094
3006,4800	96,5161
3007,4441	96,5052
3008,4084	96,4742
3009,3726	96,4291
3010,3369	96,3811
3011,3010	96,3411
3012,2654	96,315
3013,2295	96,3016
3014,1938	96,2945
3015,1580	96,2869
3016,1223	96,2747
3017,0864	96,2591
3018,0508	96,244
3019,0149	96,2337
3019,9792	96,2295
3020,9434	96,2289
3021,9077	96,227
3022,8718	96,2205
3023,8362	96,2094
3024,8003	96,1982
3025,7646	96,192
3026,7288	96,1933
3027,6931	96,1995
3028,6572	96,2044
3029,6216	96,2013
3030,5857	96,1879
3031,5500	96,1675
3032,5142	96,1479
3033,4785	96,1361
3034,4426	96,1344
3035,4070	96,1397
3036,3711	96,1457
3037,3354	96,1474
3038,2996	96,1437
3039,2639	96,1373
3040,2280	96,1325
3041,1924	96,131
3042,1565	96,131
3043,1208	96,1288
3044,0850	96,1225
3045,0493	96,1144
3046,0134	96,1107
3046,9778	96,1172
3047,9419	96,1344
3048,9063	96,1554
3049,8704	96,1688
3050,8347	96,1651
3051,7988	96,1422
3052,7632	96,1064
3053,7273	96,0685
3054,6917	96,0386
3055,6558	96,0211
3056,6201	96,0139
3057,5842	96,0111
3058,5486	96,007
3059,5127	95,9988
3060,4771	95,987
3061,4412	95,9739
3062,4055	95,9627
3063,3696	95,9553
3064,3340	95,9519
3065,2981	95,9502
3066,2625	95,9459
3067,2266	95,9345
3068,1909	95,9136
3069,1550	95,885
3070,1194	95,8538
3071,0835	95,826
3072,0479	95,8048
3073,0120	95,7894
3073,9763	95,7759
3074,9404	95,7605
3075,9048	95,742
3076,8689	95,722
3077,8333	95,7026
3078,7974	95,6846
3079,7617	95,6674
3080,7258	95,6505
3081,6902	95,6356
3082,6543	95,6263
3083,6187	95,6258
3084,5828	95,6344
3085,5471	95,648
3086,5112	95,6602
3087,4756	95,6652
3088,4397	95,6598
3089,4041	95,6445
3090,3682	95,6219
3091,3325	95,5964
3092,2966	95,5731
3093,2610	95,5571
3094,2251	95,5518
3095,1895	95,5565
3096,1536	95,5647
3097,1179	95,5671
3098,0820	95,5559
3099,0464	95,5302
3100,0105	95,4974
3100,9749	95,4696
3101,9390	95,4565
3102,9033	95,4593
3103,8674	95,47
3104,8318	95,4764
3105,7959	95,4692
3106,7603	95,4467
3107,7244	95,4151
3108,6887	95,3839
3109,6528	95,3597
3110,6172	95,3437
3111,5813	95,3328
3112,5457	95,3226
3113,5098	95,3107
3114,4741	95,2967
3115,4382	95,2808
3116,4026	95,2629
3117,3667	95,2426
3118,3311	95,2208
3119,2952	95,1997
3120,2595	95,1821
3121,2236	95,1686
3122,1880	95,1575
3123,1521	95,1464
3124,1165	95,1348
3125,0806	95,1248
3126,0449	95,1194
3127,0090	95,1186
3127,9734	95,118
3128,9375	95,1106
3129,9019	95,0913
3130,8660	95,0598
3131,8303	95,0202
3132,7944	94,977
3133,7588	94,9317
3134,7229	94,8831
3135,6873	94,8309
3136,6514	94,7793
3137,6157	94,7364
3138,5798	94,7093
3139,5442	94,6989
3140,5083	94,6981
3141,4727	94,6955
3142,4368	94,6816
3143,4011	94,6533
3144,3652	94,6134
3145,3296	94,5669
3146,2937	94,5166
3147,2581	94,4628
3148,2222	94,4053
3149,1865	94,3459
3150,1506	94,2889
3151,1150	94,239
3152,0791	94,1989
3153,0435	94,1681
3154,0076	94,1428
3154,9719	94,1182
3155,9360	94,0893
3156,9004	94,0522
3157,8645	94,0049
3158,8289	93,9479
3159,7930	93,8842
3160,7573	93,8178
3161,7214	93,7525
3162,6858	93,6905
3163,6499	93,6323
3164,6143	93,5786
3165,5784	93,5306
3166,5427	93,4899
3167,5068	93,4561
3168,4712	93,4264
3169,4353	93,4038
3170,3997	93,3673
3171,3638	93,3236
3172,3281	93,2738
3173,2922	93,2208
3174,2566	93,1658
3175,2207	93,1089
3176,1851	93,0502
3177,1492	92,9921
3178,1135	92,9392
3179,0776	92,8958
3180,0420	92,8616
3181,0061	92,8313
3181,9705	92,7972
3182,9346	92,7544
3183,8989	92,7045
3184,8630	92,6554
3185,8274	92,6163
3186,7915	92,5916
3187,7559	92,5781
3188,7200	92,5674
3189,6843	92,5518
3190,6484	92,5286
3191,6128	92,5004
3192,5769	92,4717
3193,5413	92,4447
3194,5054	92,4179
3195,4697	92,3884
3196,4338	92,356
3197,3982	92,3245
3198,3623	92,2998
3199,3267	92,2855
3200,2908	92,2804
3201,2551	92,2795
3202,2192	92,2774
3203,1836	92,2721
3204,1477	92,2647
3205,1121	92,2572
3206,0762	92,2496
3207,0405	92,2392
3208,0046	92,2224
3208,9690	92,1977
3209,9331	92,1676
3210,8975	92,1384
3211,8616	92,1171
3212,8259	92,1091
3213,7900	92,1144
3214,7544	92,1278
3215,7185	92,1401
3216,6829	92,1423
3217,6470	92,1307
3218,6113	92,1091
3219,5754	92,0874
3220,5398	92,0756
3221,5039	92,0767
3222,4683	92,0852
3223,4324	92,0909
3224,3967	92,0871
3225,3608	92,0761
3226,3252	92,068
3227,2893	92,0727
3228,2537	92,0915
3229,2178	92,1145
3230,1821	92,1271
3231,1462	92,1202
3232,1106	92,0975
3233,0747	92,073
3234,0391	92,0614
3235,0032	92,0676
3235,9675	92,0835
3236,9316	92,0939
3237,8960	92,0873
3238,8601	92,0634
3239,8245	92,0321
3240,7886	92,0061
3241,7529	91,9919
3242,7170	91,9863
3243,6814	91,9799
3244,6455	91,9638
3245,6099	91,9364
3246,5740	91,9034
3247,5383	91,8738
3248,5024	91,8545
3249,4668	91,8467
3250,4309	91,8464
3251,3953	91,8465
3252,3594	91,8387
3253,3237	91,8161
3254,2878	91,7747
3255,2522	91,715
3256,2163	91,6429
3257,1807	91,5676
3258,1448	91,4984
3259,1091	91,4404
3260,0732	91,3932
3261,0376	91,351
3262,0017	91,306
3262,9661	91,2523
3263,9302	91,1878
3264,8945	91,1136
3265,8586	91,0324
3266,8230	90,9468
3267,7871	90,8587
3268,7515	90,7687
3269,7156	90,6767
3270,6799	90,5819
3271,6440	90,4832
3272,6084	90,3795
3273,5725	90,2717
3274,5369	90,163
3275,5010	90,0592
3276,4653	89,9672
3277,4294	89,8921
3278,3938	89,8358
3279,3579	89,7952
3280,3223	89,764
3281,2864	89,7355
3282,2507	89,7066
3283,2148	89,682
3284,1792	89,6735
3285,1433	89,6958
3286,1077	89,7594
3287,0718	89,865
3288,0361	90,0025
3289,0002	90,1557
3289,9646	90,3099
3290,9287	90,4592
3291,8931	90,6079
3292,8572	90,7668
3293,8215	90,9467
3294,7856	91,1539
3295,7500	91,3894
3296,7141	91,6498
3297,6785	91,9296
3298,6426	92,2205
3299,6069	92,5113
3300,5710	92,7896
3301,5354	93,0445
3302,4995	93,2728
3303,4639	93,4809
3304,4280	93,6841
3305,3923	93,8996
3306,3564	94,1392
3307,3208	94,4025
3308,2849	94,6769
3309,2493	94,9421
3310,2134	95,1794
3311,1777	95,3782
3312,1418	95,54
3313,1062	95,6748
3314,0703	95,7963
3315,0347	95,9165
3315,9988	96,0422
3316,9631	96,1753
3317,9272	96,3141
3318,8916	96,4553
3319,8557	96,595
3320,8201	96,7287
3321,7842	96,8516
3322,7485	96,9598
3323,7126	97,0522
3324,6770	97,1317
3325,6411	97,2045
3326,6055	97,2771
3327,5696	97,3533
3328,5339	97,4332
3329,4980	97,515
3330,4624	97,5978
3331,4265	97,6836
3332,3909	97,7761
3333,3550	97,8769
3334,3193	97,9827
3335,2834	98,085
3336,2478	98,1741
3337,2119	98,2444
3338,1763	98,2974
3339,1404	98,3405
3340,1047	98,3818
3341,0688	98,4262
3342,0332	98,4738
3342,9973	98,5216
3343,9617	98,5671
3344,9258	98,6099
3345,8901	98,6506
3346,8542	98,6888
3347,8186	98,7223
3348,7827	98,7483
3349,7471	98,7667
3350,7112	98,7826
3351,6755	98,8056
3352,6396	98,8454
3353,6040	98,906
3354,5681	98,983
3355,5325	99,064
3356,4966	99,1345
3357,4609	99,1843
3358,4250	99,2124
3359,3894	99,2264
3360,3535	99,2395
3361,3179	99,2638
3362,2820	99,3066
3363,2463	99,3674
3364,2104	99,4397
3365,1748	99,5132
3366,1389	99,5785
3367,1033	99,6297
3368,0674	99,6661
3369,0317	99,6909
3369,9958	99,7099
3370,9602	99,7287
3371,9243	99,752
3372,8887	99,7828
3373,8528	99,8221
3374,8171	99,869
3375,7813	99,9206
3376,7456	99,9722
3377,7097	100,018
3378,6741	100,055
3379,6382	100,079
3380,6025	100,091
3381,5667	100,096
3382,5310	100,099
3383,4951	100,111
3384,4595	100,14
3385,4236	100,191
3386,3879	100,263
3387,3521	100,347
3388,3164	100,432
3389,2805	100,505
3390,2449	100,56
3391,2090	100,597
3392,1733	100,623
3393,1375	100,645
3394,1018	100,671
3395,0659	100,699
3396,0303	100,723
3396,9944	100,736
3397,9587	100,735
3398,9229	100,724
3399,8872	100,711
3400,8513	100,705
3401,8157	100,713
3402,7798	100,731
3403,7441	100,756
3404,7083	100,78
3405,6726	100,803
3406,6367	100,824
3407,6011	100,845
3408,5652	100,865
3409,5295	100,878
3410,4937	100,882
3411,4580	100,875
3412,4221	100,862
3413,3865	100,849
3414,3506	100,841
3415,3149	100,836
3416,2791	100,829
3417,2434	100,818
3418,2075	100,803
3419,1719	100,789
3420,1360	100,782
3421,1003	100,783
3422,0645	100,787
3423,0288	100,789
3423,9929	100,787
3424,9573	100,784
3425,9214	100,782
3426,8857	100,783
3427,8499	100,783
3428,8142	100,776
3429,7783	100,756
3430,7427	100,721
3431,7068	100,67
3432,6711	100,61
3433,6353	100,548
3434,5996	100,495
3435,5637	100,459
3436,5281	100,44
3437,4922	100,432
3438,4565	100,421
3439,4207	100,397
3440,3850	100,355
3441,3491	100,301
3442,3135	100,25
3443,2776	100,211
3444,2419	100,186
3445,2061	100,17
3446,1704	100,155
3447,1345	100,135
3448,0989	100,113
3449,0630	100,092
3450,0273	100,076
3450,9915	100,065
3451,9558	100,062
3452,9199	100,073
3453,8843	100,105
3454,8484	100,16
3455,8127	100,231
3456,7769	100,302
3457,7412	100,354
3458,7053	100,378
3459,6697	100,375
3460,6338	100,36
3461,5981	100,349
3462,5623	100,354
3463,5266	100,372
3464,4907	100,39
3465,4551	100,39
3466,4192	100,362
3467,3835	100,305
3468,3477	100,228
3469,3120	100,141
3470,2761	100,053
3471,2405	99,9632
3472,2046	99,8676
3473,1689	99,7595
3474,1331	99,6353
3475,0974	99,4956
3476,0615	99,3425
3477,0259	99,1749
3477,9900	98,9857
3478,9543	98,7638
3479,9185	98,4997
3480,8828	98,1924
3481,8469	97,8502
3482,8113	97,4828
3483,7754	97,0903
3484,7397	96,6597
3485,7039	96,1729
3486,6682	95,6217
3487,6323	95,0226
3488,5967	94,4187
3489,5608	93,8661
3490,5251	93,4144
3491,4893	93,0974
3492,4536	92,9385
3493,4177	92,9613
3494,3821	93,1882
3495,3462	93,6248
3496,3105	94,2429
3497,2747	94,984
3498,2390	95,7824
3499,2031	96,5897
3500,1675	97,3794
3501,1316	98,1347
3502,0959	98,8324
3503,0601	99,4405
3504,0244	99,9353
3504,9885	100,319
3505,9529	100,619
3506,9170	100,87
3507,8813	101,101
3508,8455	101,325
3509,8098	101,541
3510,7739	101,736
3511,7383	101,9
3512,7024	102,033
3513,6667	102,138
3514,6309	102,223
3515,5952	102,293
3516,5593	102,35
3517,5237	102,395
3518,4878	102,427
3519,4521	102,446
3520,4163	102,455
3521,3806	102,457
3522,3447	102,46
3523,3091	102,469
3524,2732	102,488
3525,2375	102,515
3526,2017	102,545
3527,1660	102,576
3528,1301	102,607
3529,0945	102,638
3530,0586	102,666
3531,0229	102,687
3531,9871	102,698
3532,9514	102,7
3533,9155	102,698
3534,8799	102,701
3535,8440	102,713
3536,8083	102,734
3537,7725	102,757
3538,7368	102,774
3539,7009	102,782
3540,6653	102,781
3541,6294	102,775
3542,5938	102,769
3543,5579	102,767
3544,5222	102,775
3545,4863	102,795
3546,4507	102,824
3547,4148	102,852
3548,3792	102,868
3549,3433	102,867
3550,3076	102,846
3551,2717	102,813
3552,2361	102,783
3553,2002	102,771
3554,1646	102,785
3555,1287	102,821
3556,0930	102,87
3557,0571	102,92
3558,0215	102,964
3558,9856	102,998
3559,9500	103,022
3560,9141	103,038
3561,8784	103,048
3562,8425	103,052
3563,8069	103,045
3564,7710	103,024
3565,7354	102,994
3566,6995	102,974
3567,6638	102,972
3568,6279	102,979
3569,5923	102,983
3570,5564	102,98
3571,5208	102,972
3572,4849	102,963
3573,4492	102,954
3574,4133	102,945
3575,3777	102,934
3576,3418	102,921
3577,3062	102,909
3578,2703	102,902
3579,2346	102,903
3580,1987	102,91
3581,1631	102,919
3582,1272	102,925
3583,0916	102,929
3584,0557	102,938
3585,0200	102,963
3585,9841	103,018
3586,9485	103,095
3587,9126	103,163
3588,8770	103,184
3589,8411	103,154
3590,8054	103,096
3591,7695	103,037
3592,7339	103,002
3593,6980	103,003
3594,6624	103,038
3595,6265	103,082
3596,5908	103,104
3597,5549	103,087
3598,5193	103,035
3599,4834	102,974
3600,4478	102,935
3601,4119	102,937
3602,3762	102,976
3603,3403	103,032
3604,3047	103,081
3605,2688	103,105
3606,2332	103,098
3607,1973	103,069
3608,1616	103,04
3609,1257	103,033
3610,0901	103,056
3611,0542	103,102
3612,0186	103,162
3612,9827	103,223
3613,9470	103,271
3614,9111	103,29
3615,8755	103,268
3616,8396	103,203
3617,8040	103,112
3618,7681	103,031
3619,7324	102,994
3620,6965	103
3621,6609	103,026
3622,6250	103,051
3623,5894	103,07
3624,5535	103,085
3625,5178	103,098
3626,4819	103,098
3627,4463	103,074
3628,4104	103,025
3629,3748	102,968
3630,3389	102,918
3631,3032	102,887
3632,2673	102,879
3633,2317	102,891
3634,1958	102,909
3635,1602	102,919
3636,1243	102,915
3637,0886	102,906
3638,0527	102,909
3639,0171	102,939
3639,9812	102,997
3640,9456	103,069
3641,9097	103,137
3642,8740	103,184
3643,8381	103,203
3644,8025	103,196
3645,7666	103,161
3646,7310	103,102
3647,6951	103,049
3648,6594	103,059
3649,6235	103,128
3650,5879	103,175
3651,5520	103,165
3652,5164	103,116
3653,4805	103,059
3654,4448	103,012
3655,4089	102,988
3656,3733	102,991
3657,3374	103,011
3658,3018	103,033
3659,2659	103,047
3660,2302	103,054
3661,1943	103,059
3662,1587	103,066
3663,1228	103,075
3664,0872	103,085
3665,0513	103,096
3666,0156	103,108
3666,9797	103,123
3667,9441	103,146
3668,9082	103,189
3669,8726	103,251
3670,8367	103,311
3671,8010	103,342
3672,7651	103,324
3673,7295	103,243
3674,6936	103,103
3675,6580	102,944
3676,6221	102,828
3677,5864	102,782
3678,5505	102,793
3679,5149	102,843
3680,4790	102,92
3681,4434	103,008
3682,4075	103,094
3683,3718	103,165
3684,3359	103,215
3685,3003	103,238
3686,2644	103,227
3687,2288	103,177
3688,1929	103,1
3689,1572	103,038
3690,1213	103,023
3691,0857	103,039
3692,0498	103,055
3693,0142	103,055
3693,9783	103,037
3694,9426	103,007
3695,9067	102,972
3696,8711	102,943
3697,8352	102,927
3698,7996	102,926
3699,7637	102,936
3700,7280	102,947
3701,6921	102,947
3702,6565	102,931
3703,6206	102,901
3704,5850	102,868
3705,5491	102,841
3706,5134	102,826
3707,4775	102,823
3708,4419	102,828
3709,4060	102,836
3710,3704	102,85
3711,3345	102,868
3712,2988	102,88
3713,2629	102,881
3714,2273	102,878
3715,1914	102,883
3716,1558	102,902
3717,1199	102,933
3718,0842	102,969
3719,0483	102,998
3720,0127	103,011
3720,9768	103,002
3721,9412	102,971
3722,9053	102,923
3723,8696	102,866
3724,8337	102,818
3725,7981	102,798
3726,7622	102,815
3727,7266	102,869
3728,6907	102,949
3729,6550	103,037
3730,6191	103,109
3731,5835	103,14
3732,5476	103,113
3733,5120	103,038
3734,4761	102,969
3735,4404	102,951
3736,4045	102,965
3737,3689	102,963
3738,3330	102,931
3739,2974	102,882
3740,2615	102,835
3741,2258	102,806
3742,1899	102,804
3743,1543	102,84
3744,1184	102,911
3745,0828	102,99
3746,0469	103,037
3747,0112	103,04
3747,9753	103,01
3748,9397	102,969
3749,9038	102,952
3750,8682	102,985
3751,8323	103,044
3752,7966	103,081
3753,7607	103,08
3754,7251	103,05
3755,6892	103,004
3756,6536	102,949
3757,6177	102,892
3758,5820	102,85
3759,5461	102,832
3760,5105	102,835
3761,4746	102,849
3762,4390	102,863
3763,4031	102,873
3764,3674	102,877
3765,3315	102,875
3766,2959	102,869
3767,2600	102,856
3768,2244	102,837
3769,1885	102,815
3770,1528	102,797
3771,1169	102,791
3772,0813	102,796
3773,0454	102,806
3774,0098	102,817
3774,9739	102,824
3775,9382	102,822
3776,9023	102,812
3777,8667	102,799
3778,8308	102,789
3779,7952	102,781
3780,7593	102,773
3781,7236	102,763
3782,6877	102,751
3783,6521	102,744
3784,6162	102,743
3785,5806	102,751
3786,5447	102,766
3787,5090	102,784
3788,4731	102,807
3789,4375	102,831
3790,4016	102,853
3791,3660	102,868
3792,3301	102,872
3793,2944	102,864
3794,2585	102,856
3795,2229	102,858
3796,1870	102,881
3797,1514	102,917
3798,1155	102,946
3799,0798	102,943
3800,0439	102,899
3801,0083	102,837
3801,9724	102,798
3802,9368	102,804
3803,9009	102,849
3804,8652	102,913
3805,8293	102,973
3806,7937	103,01
3807,7578	103,013
3808,7222	102,989
3809,6863	102,954
3810,6506	102,926
3811,6147	102,914
3812,5791	102,921
3813,5432	102,941
3814,5076	102,964
3815,4717	102,983
3816,4360	102,99
3817,4001	102,981
3818,3645	102,958
3819,3286	102,931
3820,2930	102,914
3821,2571	102,914
3822,2214	102,922
3823,1855	102,924
3824,1499	102,916
3825,1140	102,903
3826,0784	102,888
3827,0425	102,875
3828,0068	102,865
3828,9709	102,858
3829,9353	102,858
3830,8994	102,868
3831,8638	102,889
3832,8279	102,918
3833,7922	102,945
3834,7563	102,955
3835,7207	102,936
3836,6848	102,883
3837,6492	102,812
3838,6133	102,752
3839,5776	102,724
3840,5417	102,729
3841,5061	102,753
3842,4702	102,785
3843,4346	102,815
3844,3987	102,838
3845,3630	102,852
3846,3271	102,86
3847,2915	102,869
3848,2556	102,886
3849,2200	102,912
3850,1841	102,937
3851,1484	102,949
3852,1125	102,944
3853,0769	102,953
3854,0410	102,986
3855,0054	103,012
3855,9697	103,012
3856,9338	102,995
3857,8982	102,972
3858,8623	102,945
3859,8267	102,908
3860,7908	102,855
3861,7551	102,79
3862,7192	102,731
3863,6836	102,702
3864,6477	102,71
3865,6121	102,748
3866,5762	102,799
3867,5405	102,85
3868,5046	102,891
3869,4690	102,91
3870,4331	102,898
3871,3975	102,859
3872,3616	102,809
3873,3259	102,768
3874,2900	102,747
3875,2544	102,748
3876,2185	102,768
3877,1829	102,797
3878,1470	102,825
3879,1113	102,841
3880,0754	102,843
3881,0398	102,839
3882,0039	102,838
3882,9683	102,85
3883,9324	102,872
3884,8967	102,893
3885,8608	102,901
3886,8252	102,891
3887,7893	102,867
3888,7537	102,837
3889,7178	102,812
3890,6821	102,798
3891,6462	102,8
3892,6106	102,811
3893,5747	102,823
3894,5391	102,834
3895,5032	102,844
3896,4675	102,858
3897,4316	102,874
3898,3960	102,887
3899,3601	102,894
3900,3245	102,892
3901,2886	102,88
3902,2529	102,862
3903,2170	102,848
3904,1814	102,847
3905,1455	102,858
3906,1099	102,875
3907,0740	102,89
3908,0383	102,895
3909,0024	102,885
3909,9668	102,859
3910,9309	102,82
3911,8953	102,775
3912,8594	102,736
3913,8237	102,712
3914,7878	102,711
3915,7522	102,734
3916,7163	102,776
3917,6807	102,821
3918,6448	102,85
3919,6091	102,853
3920,5732	102,833
3921,5376	102,803
3922,5017	102,777
3923,4661	102,768
3924,4302	102,777
3925,3945	102,795
3926,3586	102,809
3927,3230	102,811
3928,2871	102,804
3929,2515	102,793
3930,2156	102,784
3931,1799	102,785
3932,1440	102,795
3933,1084	102,812
3934,0725	102,83
3935,0369	102,845
3936,0010	102,858
3936,9653	102,868
3937,9294	102,872
3938,8938	102,87
3939,8579	102,859
3940,8223	102,84
3941,7864	102,815
3942,7507	102,787
3943,7148	102,761
3944,6792	102,739
3945,6433	102,723
3946,6077	102,713
3947,5718	102,712
3948,5361	102,718
3949,5002	102,733
3950,4646	102,754
3951,4287	102,779
3952,3931	102,802
3953,3572	102,821
3954,3215	102,831
3955,2856	102,83
3956,2500	102,821
3957,2141	102,806
3958,1785	102,791
3959,1426	102,782
3960,1069	102,783
3961,0710	102,793
3962,0354	102,811
3962,9995	102,829
3963,9639	102,841
3964,9280	102,844
3965,8923	102,836
3966,8564	102,821
3967,8208	102,8
3968,7849	102,775
3969,7493	102,749
3970,7134	102,724
3971,6777	102,705
3972,6418	102,695
3973,6062	102,695
3974,5703	102,7
3975,5347	102,706
3976,4988	102,708
3977,4631	102,709
3978,4272	102,713
3979,3916	102,723
3980,3557	102,733
3981,3201	102,735
3982,2842	102,718
3983,2485	102,682
3984,2126	102,637
3985,1770	102,6
3986,1411	102,58
3987,1055	102,579
3988,0696	102,587
3989,0339	102,589
3989,9980	102,578
3990,9624	102,552
3991,9265	102,521
3992,8909	102,495
3993,8550	102,483
3994,8193	102,487
3995,7834	102,506
3996,7478	102,535
3997,7119	102,567
3998,6763	102,596
3999,6404	102,615
4000,6047	102,605

##### Extended Information
[Comments]
Sample name	ACcitrico
Comment
User
Division
Company	ICMAB

[Detailed Information]
Creation date	05/11/2024 11:57

Data array type	Linear data array
Horizontal axis	Wavenumber [cm-1]
Vertical axis	%T
Start	399,193 cm-1
End	4000,6 cm-1
Data interval	0,964233 cm-1
Data points	3736    

[Measurement Information]
Model Name	FT/IR-4700typeA
Serial Number	C033961788

Accessory	ATR-PRO-ONE
Accessory S/N	B102761809
Incident angle	45 deg

Measurement Date	05/11/2024 11:53

Light Source	Standard
Detector	TGS
Accumulation	32
Resolution	4 cm-1
Zero Filling	On
Apodization	Cosine
Gain	Auto (8)
Aperture	Auto (7.1 mm)
Scanning Speed	Auto (2 mm/sec)
Filter	Auto (30000 Hz)

